#################################################################
### ETH Zurich - D. Vogler - davogler@ethz.ch                 ###
### Temperature profile [K] along axis [m]                    ###
### Extracted from: 3_05.55.59_BEGINNINGspallation_corrected  ###
#################################################################
AXIS Y
0.1000
AXIS X
-0.0500 -0.0490 -0.0480 -0.0470 -0.0460 -0.0449 -0.0439 -0.0429 -0.0419 -0.0409 -0.0399 -0.0389 -0.0379 -0.0369 -0.0359 -0.0348 -0.0338 -0.0328 -0.0318 -0.0308 -0.0298 -0.0288 -0.0278 -0.0268 -0.0258 -0.0247 -0.0237 -0.0227 -0.0217 -0.0207 -0.0197 -0.0187 -0.0177 -0.0167 -0.0157 -0.0146 -0.0136 -0.0126 -0.0116 -0.0106 -0.0096 -0.0086 -0.0076 -0.0066 -0.0056 -0.0045 -0.0035 -0.0025 -0.0015 -0.0005 0.0005 0.0015 0.0025 0.0035 0.0045 0.0056 0.0066 0.0076 0.0086 0.0096 0.0106 0.0116 0.0126 0.0136 0.0146 0.0157 0.0167 0.0177 0.0187 0.0197 0.0207 0.0217 0.0227 0.0237 0.0247 0.0258 0.0268 0.0278 0.0288 0.0298 0.0308 0.0318 0.0328 0.0338 0.0348 0.0359 0.0369 0.0379 0.0389 0.0399 0.0409 0.0419 0.0429 0.0439 0.0449 0.0460 0.0470 0.0480 0.0490 0.0500
AXIS T
0.0 10.0
DATA
300.001 300.001 300.001 300.001 300.001 300.001 300.001 300.001 300.001 300.001 300.001 300.001 300.001 300.001 300.001 300.001 300.001 300.001 300.001 300.001 300.001 300.001 300.001 300.001 300.001 300.001 300.001 300.001 300.001 300.001 300.001 300.001 300.001 300.001 300.001 300.001 300.001 300.001 300.001 300.001 300.001 300.001 300.001 300.001 300.001 300.001 300.001 300.001 300.001 300.001 300.001 300.001 300.001 300.001 300.001 300.001 300.001 300.001 300.001 300.001 300.001 300.001 300.001 300.001 300.001 300.001 300.001 300.001 300.001 300.001 300.001 300.001 300.001 300.001 300.001 300.001 300.001 300.001 300.001 300.001 300.001 300.001 300.001 300.001 300.001 300.001 300.001 300.001 300.001 300.001 300.001 300.001 300.001 300.001 300.001 300.001 300.001 300.001 300.001 300.001
474.5473 484.5177 494.8366 505.4995 516.5003 527.8317 539.4844 551.4480 563.7100 576.2567 589.0724 602.1399 615.4403 628.9531 642.6561 656.5255 670.5359 684.6606 698.8713 713.1384 727.4309 741.7168 755.9630 770.1354 784.1991 798.1184 811.8573 825.3792 838.6473 851.6248 864.2748 876.5610 888.4472 899.8980 910.8786 921.3555 931.2959 940.6687 949.4439 957.5934 965.0908 971.9114 978.0329 983.4350 988.0996 992.0111 995.1562 997.5245 999.1078 999.9008 999.9008 999.1078 997.5245 995.1562 992.0111 988.0996 983.4350 978.0329 971.9114 965.0908 957.5934 949.4439 940.6687 931.2959 921.3555 910.8786 899.8980 888.4472 876.5610 864.2748 851.6248 838.6473 825.3792 811.8573 798.1184 784.1991 770.1354 755.9630 741.7168 727.4309 713.1384 698.8713 684.6606 670.5359 656.5255 642.6561 628.9531 615.4403 602.1399 589.0724 576.2567 563.7100 551.4480 539.4844 527.8317 516.5003 505.4995 494.8366 484.5177 474.5473
