#################################################################
### ETH Zurich - D. Vogler - davogler@ethz.ch                 ###
### Temperature profile [K] along axis [m]                    ###
### Extracted from: 3_05.55.59_BEGINNINGspallation_corrected  ###
#################################################################
AXIS Y
0.1000
AXIS X
-0.0500 -0.0490 -0.0480 -0.0470 -0.0460 -0.0449 -0.0439 -0.0429 -0.0419 -0.0409 -0.0399 -0.0389 -0.0379 -0.0369 -0.0359 -0.0348 -0.0338 -0.0328 -0.0318 -0.0308 -0.0298 -0.0288 -0.0278 -0.0268 -0.0258 -0.0247 -0.0237 -0.0227 -0.0217 -0.0207 -0.0197 -0.0187 -0.0177 -0.0167 -0.0157 -0.0146 -0.0136 -0.0126 -0.0116 -0.0106 -0.0096 -0.0086 -0.0076 -0.0066 -0.0056 -0.0045 -0.0035 -0.0025 -0.0015 -0.0005 0.0005 0.0015 0.0025 0.0035 0.0045 0.0056 0.0066 0.0076 0.0086 0.0096 0.0106 0.0116 0.0126 0.0136 0.0146 0.0157 0.0167 0.0177 0.0187 0.0197 0.0207 0.0217 0.0227 0.0237 0.0247 0.0258 0.0268 0.0278 0.0288 0.0298 0.0308 0.0318 0.0328 0.0338 0.0348 0.0359 0.0369 0.0379 0.0389 0.0399 0.0409 0.0419 0.0429 0.0439 0.0449 0.0460 0.0470 0.0480 0.0490 0.0500
AXIS T
0.0 3.0
DATA
300.001 300.001 300.001 300.001 300.001 300.001 300.001 300.001 300.001 300.001 300.001 300.001 300.001 300.001 300.001 300.001 300.001 300.001 300.001 300.001 300.001 300.001 300.001 300.001 300.001 300.001 300.001 300.001 300.001 300.001 300.001 300.001 300.001 300.001 300.001 300.001 300.001 300.001 300.001 300.001 300.001 300.001 300.001 300.001 300.001 300.001 300.001 300.001 300.001 300.001 300.001 300.001 300.001 300.001 300.001 300.001 300.001 300.001 300.001 300.001 300.001 300.001 300.001 300.001 300.001 300.001 300.001 300.001 300.001 300.001 300.001 300.001 300.001 300.001 300.001 300.001 300.001 300.001 300.001 300.001 300.001 300.001 300.001 300.001 300.001 300.001 300.001 300.001 300.001 300.001 300.001 300.001 300.001 300.001 300.001 300.001 300.001 300.001 300.001 300.001
321.9694 324.8942 328.1364 331.7200 335.6689 340.0072 344.7589 349.9474 355.5954 361.7245 368.3546 375.5041 383.1890 391.4225 400.2150 409.5733 419.5003 429.9947 441.0504 452.6565 464.7967 477.4492 490.5863 504.1746 518.1744 532.5403 547.2207 562.1584 577.2904 592.5487 607.8603 623.1480 638.3307 653.3244 668.0426 682.3973 696.2996 709.6612 722.3944 734.4139 745.6373 755.9860 765.3864 773.7707 781.0773 787.2521 792.2490 796.0303 798.5673 799.8406 799.8406 798.5673 796.0303 792.2490 787.2521 781.0773 773.7707 765.3864 755.9860 745.6373 734.4139 722.3944 709.6612 696.2996 682.3973 668.0426 653.3244 638.3307 623.1480 607.8603 592.5487 577.2904 562.1584 547.2207 532.5403 518.1744 504.1746 490.5863 477.4492 464.7967 452.6565 441.0504 429.9947 419.5003 409.5733 400.2150 391.4225 383.1890 375.5041 368.3546 361.7245 355.5954 349.9474 344.7589 340.0072 335.6689 331.7200 328.1364 324.8942 321.9694
